Black Body Radiation Experiment Wed, Mar 6, 2024 1:49 PM
Sensor Position (Degrees)	Light Intensity (Volts)
0.01015	0.00051
0.01015	0.00048
0.01015	0.00035
0.01015	0.00015
0.01015	-0.00007
0.01015	-0.00030
0.01015	-0.00049
0.01015	-0.00006
0.01015	-0.00058
0.01015	0.00003
0.01015	-0.00030
0.01015	-0.00047
0.01015	-0.00136
0.01015	-0.00079
0.01015	-0.00074
0.01015	-0.00110
0.01015	-0.00184
0.01015	-0.00229
0.01015	-0.00253
0.01015	-0.00220
0.01015	-0.00210
0.01015	-0.00170
0.01015	-0.00172
0.01015	-0.00089
0.01015	-0.00037
0.01015	-0.00016
0.01015	0.00006
0.01015	0.00033
0.01015	0.00079
0.01015	0.00084
0.01015	0.00140
0.01015	0.00197
0.01015	0.00237
0.01015	0.00238
0.01015	0.00225
0.01015	0.00220
0.01015	0.00175
0.01015	0.00092
0.01015	0.00036
0.01015	-0.00025
0.01015	-0.00099
0.01015	-0.00161
0.01015	-0.00194
0.01015	-0.00202
0.01015	-0.00249
0.01015	-0.00276
0.01015	-0.00342
0.01015	-0.00314
0.01015	-0.00262
0.01015	-0.00186
0.01015	-0.00165
0.01015	-0.00103
0.01015	-0.00006
0.01015	0.00030
0.01015	0.00046
0.01015	0.00119
0.01015	0.00082
0.01015	0.00042
0.01015	-0.00074
0.01015	-0.00103
0.01015	-0.00160
0.01015	-0.00176
0.01015	-0.00197
0.01015	-0.00171
0.01015	-0.00109
0.01015	-0.00061
0.01015	0.00029
0.01015	0.00142
0.01015	0.00141
0.01015	0.00125
0.01015	0.00061
0.01015	0.00012
0.01015	-0.00072
0.01015	-0.00142
0.01015	-0.00207
0.01015	-0.00262
0.01015	-0.00332
0.01015	-0.00362
0.01015	-0.00339
0.01015	-0.00333
0.01015	-0.00323
0.01015	-0.00350
0.01015	-0.00318
0.01015	-0.00261
0.01015	-0.00210
0.01015	-0.00238
0.01015	-0.00220
0.01015	-0.00207
0.01015	-0.00256
0.01015	-0.00199
0.01015	-0.00097
0.01015	-0.00022
0.01015	0.00020
0.01015	0.00019
0.01015	0.00133
0.01015	0.00192
0.01015	0.00180
0.01015	0.00088
0.01015	0.00001
0.01015	-0.00077
0.01015	-0.00169
0.01015	-0.00281
0.01015	-0.00411
0.01015	-0.00478
0.01015	-0.00523
0.01015	-0.00470
0.01015	-0.00332
0.01015	-0.00311
0.01015	-0.00307
0.01015	-0.00264
0.01015	-0.00242
0.01015	-0.00180
0.01015	-0.00137
0.01015	-0.00132
0.01015	-0.00119
0.01015	-0.00041
0.01015	0.00050
0.01015	0.00040
0.01015	0.00010
0.01015	-0.00115
0.01015	-0.00184
0.01015	-0.00190
0.01015	-0.00210
0.01015	-0.00181
0.01015	-0.00118
0.01015	-0.00045
0.01015	-0.00012
0.01015	0.00095
0.01015	0.00111
0.01015	0.00075
0.01015	0.00053
0.01015	0.00045
0.01015	0.00026
0.01015	0.00043
0.01015	-0.00005
0.01015	-0.00124
0.01015	-0.00211
0.01015	-0.00276
0.01015	-0.00301
0.01015	-0.00237
0.01015	-0.00198
0.01015	-0.00134
0.01015	-0.00112
0.01015	-0.00062
0.01015	0.00016
0.01015	0.00145
0.01015	0.00144
0.01015	0.00121
0.01015	0.00119
0.01015	0.00067
0.01015	-0.00005
0.01015	-0.00058
0.01015	-0.00104
0.01015	-0.00177
0.03046	-0.00238
0.07107	-0.00215
0.15228	-0.00112
0.20305	-0.00062
0.30457	0.00010
0.38579	0.00112
0.43655	0.00177
0.64975	0.00076
0.76142	0.00027
0.80203	-0.00022
1.01523	-0.00048
1.14721	-0.00047
1.19797	-0.00066
1.36041	-0.00007
1.48223	0.00006
1.54315	-0.00020
1.71574	0.00021
1.85787	0.00040
1.91878	-0.00007
2.17259	-0.00096
2.34518	-0.00029
2.44670	-0.00000
2.64975	0.00071
2.79188	0.00165
2.84264	0.00214
3.01523	0.00267
3.15736	0.00281
3.20812	0.00287
3.39086	0.00213
3.47208	0.00173
3.51269	0.00036
3.62437	0.00018
3.68528	0.00088
3.71574	0.00119
3.80711	0.00151
3.92893	0.00225
4.01015	0.00248
4.21320	0.00272
4.30457	0.00372
4.41624	0.00423
4.57868	0.00431
4.72081	0.00379
4.79188	0.00298
4.99492	0.00320
5.14721	0.00311
5.23858	0.00289
5.54315	0.00257
5.71574	0.00264
5.78680	0.00254
6.03046	0.00260
6.17259	0.00314
6.24365	0.00363
6.43655	0.00406
6.54822	0.00339
6.60914	0.00427
6.77157	0.00471
6.87310	0.00538
6.92386	0.00624
7.15736	0.00621
7.26904	0.00599
7.30964	0.00597
7.51269	0.00549
7.64467	0.00546
7.70558	0.00573
7.91878	0.00547
8.10152	0.00533
8.18274	0.00588
8.41624	0.00588
8.55838	0.00612
8.63959	0.00557
8.85279	0.00504
9.01523	0.00413
9.09645	0.00361
9.31980	0.00387
9.49239	0.00470
9.57360	0.00576
9.81726	0.00700
10.01015	0.00812
10.09137	0.00929
10.29442	0.01017
10.39594	0.01032
10.50761	0.00973
10.69036	0.00957
10.82234	0.00866
10.88325	0.00784
11.04569	0.00766
11.18782	0.00795
11.24873	0.00883
11.41117	0.00888
11.55330	0.00876
11.60406	0.00914
11.78680	0.00922
11.92893	0.00891
11.98985	0.00887
12.20305	0.00893
12.35533	0.00863
12.43655	0.00829
12.69036	0.00833
12.84264	0.00867
12.90355	0.00942
13.11675	0.00941
13.24873	0.00931
13.29949	0.00915
13.42132	0.00915
13.50254	0.00911
13.53299	0.00903
13.60406	0.00893
13.64467	0.00930
13.66497	0.01010
13.73604	0.01002
13.77665	0.01033
13.80711	0.01077
13.88832	0.01077
13.94924	0.01017
14.01015	0.00988
14.11168	0.01072
14.22335	0.01094
14.24365	0.01121
14.39594	0.01219
14.51777	0.01287
14.57868	0.01285
14.81218	0.01238
14.97462	0.01294
15.10660	0.01300
15.27919	0.01342
15.37056	0.01352
15.40102	0.01443
15.53299	0.01664
15.57360	0.01727
15.59391	0.01858
15.65482	0.01949
15.66497	0.01971
15.67513	0.01984
15.75635	0.02042
15.81726	0.02085
15.90863	0.02156
16.08122	0.02180
16.17259	0.02151
16.20305	0.02251
16.32487	0.02340
16.40609	0.02414
16.45685	0.02522
16.71066	0.02604
16.86294	0.02797
16.93401	0.03022
17.21827	0.03246
17.32995	0.03529
17.39086	0.03892
17.59391	0.04215
17.70558	0.04627
17.77665	0.05136
17.90863	0.05562
17.95939	0.06077
18.00000	0.06501
18.09137	0.06861
18.15228	0.07319
18.20305	0.07736
18.29442	0.08094
18.34518	0.08579
18.40609	0.09165
18.54822	0.09789
18.63959	0.10640
18.71066	0.11528
18.81218	0.12464
18.89340	0.13518
18.95431	0.14556
19.04569	0.15497
19.06599	0.16508
19.09645	0.17376
19.13706	0.18292
19.17766	0.19335
19.23858	0.20490
19.31980	0.21675
19.38071	0.23120
19.45178	0.24400
19.48223	0.25792
19.53299	0.27250
19.56345	0.29053
19.64467	0.30824
19.70558	0.33175
19.84772	0.35561
19.92893	0.38878
20.06091	0.42841
20.13198	0.47094
20.27411	0.51944
20.33503	0.57219
20.46701	0.62240
20.50761	0.67600
20.55838	0.72795
20.63959	0.78354
20.67005	0.83715
20.70051	0.88856
20.77157	0.93688
20.79188	0.98275
20.85279	1.02959
20.88325	1.07219
20.91371	1.12432
21.00508	1.18209
21.06599	1.23809
21.16751	1.30473
21.22843	1.37220
21.32995	1.45176
21.38071	1.53241
21.43147	1.61892
21.56345	1.70911
21.60406	1.79897
21.75635	1.89085
21.82741	1.97523
21.95939	2.06085
22.02030	2.13783
22.11168	2.19852
22.13198	2.25161
22.16244	2.29111
22.24365	2.32353
22.29442	2.34606
22.31472	2.36798
22.43655	2.38499
22.51777	2.39865
22.55838	2.40356
22.64975	2.40569
22.72081	2.40324
22.76142	2.39358
22.90355	2.37014
22.97462	2.33418
23.01523	2.29090
23.15736	2.23579
23.20812	2.17235
23.30964	2.10744
23.37056	2.04112
23.40102	1.97561
23.44162	1.91344
23.46193	1.86222
23.47208	1.81555
23.49239	1.77768
23.50254	1.73915
23.52284	1.69848
23.54315	1.66449
23.59391	1.62448
23.63452	1.57866
23.70558	1.53645
23.75635	1.49006
23.78680	1.43983
23.83756	1.39107
23.88832	1.34354
23.90863	1.29347
23.96954	1.25063
23.98985	1.20407
24.01015	1.15224
24.08122	1.10609
24.16244	1.05184
24.20305	0.98883
24.32487	0.92908
24.41624	0.86246
24.46701	0.78880
24.62944	0.72045
24.75127	0.65013
24.80203	0.57813
24.96447	0.51689
25.06599	0.45560
25.11675	0.39697
25.23858	0.34963
25.31980	0.30393
25.37056	0.26174
25.48223	0.22921
25.57360	0.19828
25.60406	0.16967
25.68528	0.14917
25.76650	0.13014
25.79695	0.11224
25.88832	0.10056
25.94924	0.08824
25.97970	0.07688
26.08122	0.06906
26.15228	0.06141
26.17259	0.05434
26.24365	0.04964
26.30457	0.04453
26.33503	0.03980
26.44670	0.03630
26.52792	0.03415
26.55838	0.03159
26.64975	0.03043
26.71066	0.02861
26.75127	0.02729
26.83249	0.02636
26.88325	0.02576
26.90355	0.02504
26.97462	0.02537
27.01523	0.02380
27.03553	0.02276
27.12690	0.02192
27.18782	0.02182
27.21827	0.02086
27.35025	0.02121
27.45178	0.02092
27.48223	0.02149
27.66497	0.02129
27.77665	0.02166
27.83756	0.02171
27.98985	0.02183
28.07107	0.02163
28.12183	0.02154
28.28426	0.02130
28.39594	0.02089
28.45685	0.02053
28.59898	0.02137
28.64975	0.02103
28.69036	0.02059
28.78173	0.01974
28.83249	0.01919
28.86294	0.01840
28.93401	0.01793
28.97462	0.01849
29.00508	0.01836
29.13706	0.01886
29.21827	0.01909
29.26904	0.01939
29.42132	0.01995
29.51269	0.01936
29.57360	0.01873
29.71574	0.01815
29.81726	0.01777
29.85787	0.01772
29.97970	0.01816
30.07107	0.01921