Black Body Radiation Experiment Wed, Mar 13, 2024 8:39 PM
Sensor Position (Degrees)	Light Intensity (Volts)
0.01015	-0.00835
0.01015	-0.00502
0.01015	-0.00227
0.01015	-0.00007
0.03046	0.00160
0.11168	0.00275
0.29442	0.00340
0.36548	0.00357
0.49746	0.00178
0.50761	0.00261
0.50761	0.00075
0.52792	-0.00153
0.54822	-0.00108
0.55838	-0.00036
0.55838	0.00092
0.55838	0.00030
0.55838	-0.00033
0.56853	-0.00077
0.57868	0.00041
0.60914	-0.00096
0.65990	-0.00330
0.72081	-0.00344
0.75127	-0.00338
0.77157	-0.00334
0.84264	-0.00284
0.91371	-0.00051
0.94416	-0.00039
1.02538	-0.00157
1.08629	-0.00196
1.10660	-0.00025
1.16751	0.00037
1.19797	-0.00074
1.20812	-0.00113
1.24873	-0.00172
1.29949	-0.00136
1.30964	-0.00088
1.37056	-0.00117
1.41117	-0.00120
1.43147	-0.00073
1.47208	-0.00039
1.49239	-0.00009
1.51269	0.00184
1.59391	0.00317
1.63452	0.00217
1.66497	0.00277
1.67513	0.00094
1.67513	0.00130
1.67513	0.00303
1.76650	0.00320
1.81726	0.00205
1.86802	0.00188
1.88832	0.00020
1.93909	-0.00145
1.96954	-0.00073
2.00000	0.00042
2.07107	-0.00069
2.11168	0.00080
2.13198	-0.00047
2.18274	0.00142
2.23350	0.00281
2.25381	0.00362
2.37563	0.00227
2.43655	0.00163
2.46701	0.00030
2.56853	0.00044
2.61929	-0.00099
2.63959	0.00135
2.70051	0.00097
2.74112	0.00197
2.76142	0.00126
2.83249	0.00123
2.88325	0.00171
2.90355	0.00161
2.96447	0.00128
2.97462	0.00134
2.97462	0.00038
2.99492	0.00072
3.04569	-0.00015
3.14721	0.00138
3.21827	0.00045
3.24873	0.00081
3.30964	-0.00025
3.34010	-0.00261
3.36041	-0.00222
3.44162	-0.00257
3.49239	-0.00045
3.51269	0.00041
3.55330	0.00203
3.57360	0.00295
3.57360	0.00199
3.58376	0.00160
3.59391	0.00174
3.60406	0.00405
3.61421	0.00314
3.67513	0.00289
3.72589	0.00295
3.73604	0.00334
3.78680	0.00296
3.82741	0.00377
3.83756	0.00343
3.88832	0.00079
3.91878	-0.00048
3.93909	0.00043
3.97970	0.00174
4.00000	0.00344
4.02030	0.00228
4.06091	0.00367
4.09137	0.00341
4.11168	0.00271
4.14213	0.00076
4.16244	0.00025
4.16244	-0.00097
4.19289	-0.00052
4.21320	0.00179
4.22335	0.00388
4.23350	0.00313
4.27411	0.00400
4.30457	0.00388
4.31472	0.00508
4.34518	0.00371
4.38579	0.00342
4.40609	0.00246
4.49746	0.00186
4.57868	0.00223
4.61929	0.00358
4.68020	0.00203
4.72081	0.00214
4.73096	0.00045
4.78173	0.00192
4.80203	0.00108
4.81218	0.00160
4.81218	0.00056
4.82234	0.00298
4.82234	0.00324
4.84264	0.00339
4.86294	0.00248
4.88325	0.00172
4.90355	-0.00156
4.90355	-0.00175
4.92386	-0.00168
4.94416	-0.00013
4.97462	0.00024
5.01523	0.00051
5.04569	0.00109
5.13706	0.00326
5.20812	0.00303
5.24873	0.00254
5.36041	0.00102
5.43147	-0.00012
5.47208	-0.00184
5.56345	-0.00151
5.61421	-0.00113
5.63452	-0.00134
5.70558	-0.00223
5.72589	-0.00136
5.72589	0.00107
5.72589	0.00243
5.74619	0.00380
5.76650	0.00475
5.80711	0.00371
5.81726	0.00526
5.87817	0.00573
5.94924	0.00419
6.00000	0.00406
6.16244	0.00244
6.28426	0.00180
6.32487	0.00275
6.45685	0.00334
6.50761	0.00503
6.52792	0.00566
6.58883	0.00616
6.61929	0.00727
6.63959	0.00835
6.67005	0.00766
6.69036	0.00541
6.70051	0.00554
6.74112	0.00282
6.78173	0.00082
6.80203	-0.00088
6.84264	0.00005
6.91371	0.00177
6.97462	0.00220
7.18782	0.00378
7.29949	0.00493
7.35025	0.00388
7.49239	0.00550
7.57360	0.00531
7.60406	0.00476
7.65482	0.00490
7.66497	0.00299
7.66497	0.00437
7.66497	0.00600
7.66497	0.00686
7.66497	0.00516
7.69543	0.00343
7.72589	0.00390
7.76650	0.00332
7.79695	0.00508
7.84772	0.00499
7.87817	0.00535
7.87817	0.00786
8.05076	0.00642
8.19289	0.00885
8.28426	0.00782
8.32487	0.00660
8.42640	0.00390
8.49746	0.00162
8.53807	0.00179
8.59898	0.00188
8.60914	0.00206
8.60914	0.00346
8.61929	0.00347
8.64975	0.00470
8.70051	0.00303
8.75127	0.00554
8.77157	0.00447
8.85279	0.00534
8.91371	0.00345
8.93401	0.00271
9.01523	0.00238
9.06599	0.00495
9.09645	0.00496
9.17766	0.00612
9.26904	0.00426
9.31980	0.00399
9.47208	0.00523
9.56345	0.00636
9.59391	0.00650
9.67513	0.00647
9.71574	0.00638
9.73604	0.00769
9.79695	0.00556
9.85787	0.00742
9.88832	0.00541
9.96954	0.00616
10.04061	0.00481
10.08122	0.00427
10.12183	0.00595
10.14213	0.00503
10.15228	0.00715
10.21320	0.00787
10.27411	0.00971
10.32487	0.00878
10.41624	0.00640
10.49746	0.00658
10.51777	0.00606
10.57868	0.00770
10.61929	0.00616
10.63959	0.00454
10.72081	0.00339
10.79188	0.00420
10.81218	0.00468
10.85279	0.00527
10.86294	0.00309
10.87310	0.00347
10.92386	0.00248
10.98477	0.00558
11.00508	0.00630
11.06599	0.00780
11.09645	0.00688
11.10660	0.00792
11.16751	0.00757
11.21827	0.00876
11.23858	0.00590
11.28934	0.00677
11.31980	0.00513
11.32995	0.00816
11.39086	0.00767
11.42132	0.00893
11.44162	0.00656
11.50254	0.00561
11.54315	0.00537
11.56345	0.00539
11.60406	0.00566
11.63452	0.00531
11.65482	0.00542
11.71574	0.00782
11.75635	0.00802
11.76650	0.00978
11.82741	0.00886
11.84772	0.00890
11.85787	0.00684
11.88832	0.00577
11.92893	0.00577
11.95939	0.00649
12.05076	0.00845
12.12183	0.00829
12.14213	0.00857
12.22335	0.00780
12.30457	0.00767
12.33503	0.00721
12.46701	0.00739
12.54822	0.00727
12.56853	0.00749
12.61929	0.00796
12.65990	0.00787
12.69036	0.00891
12.79188	0.00805
12.84264	0.00770
12.86294	0.00539
12.89340	0.00459
12.93401	0.00651
12.95431	0.00662
13.00508	0.00892
13.04569	0.00949
13.05584	0.01201
13.10660	0.01252
13.14721	0.01266
13.17766	0.01328
13.25888	0.01312
13.30964	0.01182
13.34010	0.01083
13.45178	0.01079
13.54315	0.01058
13.58376	0.00959
13.70558	0.00934
13.77665	0.00775
13.79695	0.00756
13.89848	0.00690
13.93909	0.00637
13.94924	0.00652
13.96954	0.00482
14.01015	0.00542
14.03046	0.00625
14.10152	0.00634
14.15228	0.00856
14.17259	0.00985
14.22335	0.01124
14.29442	0.01351
14.32487	0.01393
14.43655	0.01449
14.52792	0.01586
14.56853	0.01662
14.72081	0.01651
14.76142	0.01645
14.77157	0.01623
14.81218	0.01773
14.86294	0.01883
14.91371	0.01829
14.95431	0.01823
14.99492	0.01672
15.01523	0.01509
15.10660	0.01535
15.16751	0.01398
15.19797	0.01472
15.27919	0.01508
15.34010	0.01360
15.36041	0.01679
15.43147	0.01723
15.46193	0.01982
15.48223	0.02130
15.52284	0.02310
15.54315	0.02355
15.55330	0.02574
15.62437	0.02621
15.67513	0.02469
15.70558	0.02531
15.78680	0.02482
15.81726	0.02210
15.82741	0.02304
15.87817	0.02149
15.91878	0.02315
15.93909	0.02343
15.97970	0.02414
16.01015	0.02393
16.03046	0.02450
16.08122	0.02421
16.09137	0.02461
16.10152	0.02518
16.13198	0.02639
16.15228	0.02782
16.16244	0.02896
16.18274	0.02923
16.19289	0.03051
16.20305	0.03152
16.22335	0.03001
16.25381	0.03091
16.26396	0.02990
16.29442	0.03138
16.30457	0.03244
16.32487	0.03518
16.38579	0.03714
16.42640	0.04003
16.43655	0.04170
16.49746	0.04300
16.53807	0.04534
16.56853	0.04675
16.62944	0.04871
16.63959	0.05015
16.65990	0.05047
16.74112	0.05175
16.80203	0.05111
16.82234	0.05297
16.87310	0.05209
16.89340	0.05144
16.90355	0.05231
16.98477	0.05197
17.03553	0.05329
17.05584	0.05515
17.10660	0.05712
17.14721	0.05722
17.16751	0.06105
17.29949	0.06398
17.38071	0.06844
17.42132	0.07271
17.47208	0.07595
17.50254	0.07965
17.53299	0.08438
17.59391	0.08720
17.60406	0.08977
17.60406	0.09053
17.60406	0.09185
17.61421	0.09244
17.62437	0.09373
17.63452	0.09551
17.71574	0.09669
17.75635	0.09901
17.76650	0.10222
17.83756	0.10557
17.88832	0.11188
17.92893	0.11800
18.05076	0.12461
18.10152	0.13068
18.11168	0.14080
18.20305	0.14793
18.25381	0.15562
18.30457	0.16595
18.35533	0.17261
18.41624	0.18352
18.47716	0.19403
18.55838	0.20279
18.59898	0.21706
18.63959	0.22927
18.74112	0.24288
18.79188	0.25994
18.82234	0.27801
18.92386	0.29409
18.97462	0.31503
19.01523	0.33601
19.08629	0.35725
19.13706	0.38239
19.19797	0.40976
19.28934	0.43546
19.35025	0.46501
19.39086	0.49327
19.44162	0.51898
19.47208	0.54414
19.49239	0.56830
19.52284	0.58908
19.56345	0.60925
19.59391	0.62922
19.64467	0.65123
19.66497	0.67611
19.68528	0.70296
19.75635	0.72806
19.80711	0.75817
19.82741	0.78997
19.88832	0.81557
19.92893	0.84147
19.93909	0.87172
19.93909	0.89494
19.95939	0.91840
19.98985	0.94395
20.06091	0.96861
20.10152	0.99570
20.12183	1.02099
20.15228	1.04624
20.15228	1.07361
20.16244	1.09793
20.18274	1.11648
20.19289	1.13708
20.21320	1.15857
20.24365	1.17651
20.26396	1.19773
20.27411	1.21851
20.35533	1.24276
20.39594	1.27271
20.40609	1.30366
20.43655	1.33981
20.46701	1.38071
20.55838	1.42234
20.60914	1.46782
20.62944	1.51644
20.67005	1.56071
20.68020	1.60797
20.69036	1.65194
20.74112	1.68938
20.76142	1.72417
20.77157	1.75294
20.77157	1.77498
20.77157	1.79599
20.78173	1.81975
20.82234	1.83922
20.86294	1.86363
20.87310	1.89104
20.95431	1.92024
21.00508	1.95931
21.02538	1.99808
21.08629	2.03419
21.09645	2.06935
21.09645	2.09991
21.10660	2.12815
21.11675	2.15560
21.11675	2.17795
21.13706	2.19617
21.14721	2.21935
21.18782	2.23887
21.22843	2.26190
21.24873	2.29333
21.34010	2.32353
21.40102	2.35482
21.42132	2.38869
21.50254	2.42175
21.51269	2.45233
21.51269	2.48001
21.53299	2.50220
21.55330	2.52305
21.57360	2.53975
21.59391	2.54785
21.61421	2.55725
21.61421	2.56697
21.61421	2.57256
21.61421	2.57948
21.63452	2.58717
21.65482	2.59618
21.69543	2.60464
21.71574	2.61818
21.77665	2.63158
21.79695	2.64344
21.79695	2.65364
21.81726	2.66292
21.83756	2.67211
21.84772	2.67816
21.84772	2.68315
21.84772	2.68537
21.84772	2.68958
21.87817	2.69480
21.91878	2.69907
21.95939	2.70362
21.97970	2.70527
22.02030	2.70573
22.04061	2.70609
22.05076	2.70774
22.06091	2.70720
22.08122	2.70579
22.09137	2.70314
22.16244	2.70132
22.17259	2.69986
22.18274	2.69729
22.19289	2.69162
22.21320	2.68632
22.22335	2.68081
22.25381	2.67431
22.26396	2.66962
22.26396	2.66409
22.29442	2.65566
22.31472	2.64906
22.33503	2.63883
22.35533	2.63029
22.41624	2.61838
22.46701	2.60329
22.48731	2.58216
22.52792	2.56401
22.54822	2.54304
22.55838	2.52120
22.57868	2.50137
22.58883	2.48086
22.58883	2.46400
22.60914	2.45028
22.61929	2.43822
22.61929	2.43033
22.61929	2.42511
22.61929	2.41988
22.61929	2.41252
22.61929	2.41096
22.61929	2.40668
22.63959	2.40150
22.67005	2.39519
22.70051	2.38644
22.71066	2.37466
22.74112	2.36062
22.78173	2.34249
22.79188	2.31975
22.84264	2.29642
22.86294	2.27100
22.87310	2.24695
22.89340	2.22546
22.91371	2.20321
22.91371	2.18253
22.92386	2.16358
22.93401	2.14547
22.97462	2.12902
23.00508	2.11247
23.01523	2.08934
23.04569	2.06776
23.07614	2.04530
23.08629	2.02078
23.11675	1.99611
23.13706	1.96858
23.15736	1.93597
23.20812	1.90610
23.23858	1.87444
23.25888	1.84028
23.29949	1.80804
23.34010	1.77327
23.35025	1.73496
23.40102	1.70392
23.42132	1.66819
23.43147	1.62947
23.48223	1.59162
23.53299	1.55302
23.54315	1.51166
23.58376	1.47695
23.60406	1.43820
23.61421	1.39670
23.65482	1.35810
23.68528	1.32036
23.70558	1.28110
23.76650	1.24788
23.80711	1.20928
23.81726	1.16752
23.85787	1.12985
23.89848	1.09193
23.90863	1.05606
23.92893	1.02516
23.95939	0.99129
23.97970	0.95387
24.03046	0.92091
24.07107	0.88838
24.08122	0.85586
24.14213	0.82645
24.18274	0.79240
24.20305	0.75363
24.28426	0.71831
24.33503	0.68100
24.35533	0.64310
24.44670	0.60767
24.50761	0.56892
24.53807	0.52680
24.59898	0.49110
24.62944	0.45894
24.64975	0.42841
24.69036	0.40335
24.71066	0.37846
24.72081	0.35418
24.75127	0.33436
24.78173	0.31584
24.79188	0.29919
24.83249	0.28689
24.85279	0.27256
24.86294	0.25741
24.89340	0.24606
24.91371	0.23700
24.92386	0.22748
24.97462	0.22006
25.01523	0.20927
25.03553	0.19630
25.10660	0.18406
25.15736	0.17238
25.18782	0.16252
25.21827	0.15323
25.23858	0.14299
25.24873	0.13168
25.26904	0.12385
25.28934	0.11721
25.29949	0.11365
25.32995	0.10943
25.36041	0.10315
25.38071	0.09487
25.47208	0.08981
25.52284	0.08422
25.55330	0.08107
25.62437	0.07671
25.66497	0.07159
25.68528	0.06445
25.71574	0.05989
25.73604	0.05442
25.74619	0.05362
25.78680	0.05055
25.78680	0.04796
25.79695	0.04246
25.84772	0.04117
25.89848	0.03910
25.91878	0.03961
25.96954	0.03910
26.00000	0.03740
26.03046	0.03401
26.10152	0.03038
26.16244	0.02936
26.19289	0.02861
26.30457	0.02719
26.37563	0.02551
26.41624	0.02370
26.54822	0.02363
26.67005	0.02258
26.72081	0.02189
26.87310	0.02019
26.91371	0.01926
26.93401	0.01835
26.99492	0.01892
27.03553	0.02007
27.06599	0.01995
27.15736	0.01981
27.22843	0.01991
27.25888	0.01889
27.30964	0.01871
27.34010	0.01721
27.35025	0.01636
27.41117	0.01579
27.47208	0.01678
27.50254	0.01592
27.57360	0.01748
27.60406	0.01641
27.62437	0.01797
27.66497	0.01782
27.69543	0.01790
27.71574	0.01447
27.75635	0.01529
27.78680	0.01425
27.79695	0.01649
27.83756	0.01677
27.87817	0.01680
27.90863	0.01383
27.96954	0.01504
27.98985	0.01363
28.01015	0.01696
28.05076	0.01753
28.08122	0.01656
28.10152	0.01489
28.13198	0.01391
28.15228	0.01298
28.16244	0.01495
28.18274	0.01488
28.20305	0.01378
28.21320	0.01188
28.26396	0.01110
28.29442	0.01055
28.30457	0.01393
28.33503	0.01464
28.37563	0.01428
28.38579	0.01507
28.44670	0.01359
28.47716	0.01412
28.49746	0.01412
28.55838	0.01281
28.59898	0.01262
28.61929	0.01001
28.71066	0.00934
28.76142	0.00963
28.78173	0.01249
28.83249	0.01364
28.86294	0.01347
28.89340	0.01454
28.96447	0.01301
28.98477	0.01285
28.99492	0.01073
29.03553	0.01051
29.06599	0.00944
29.08629	0.00887
29.14721	0.01036
29.18782	0.01020
29.20812	0.01212
29.27919	0.01108
29.32995	0.01011
29.35025	0.00845
29.38071	0.00738
29.39086	0.00631
29.39086	0.00646
29.41117	0.00641
29.43147	0.00770
29.47208	0.01100
29.49239	0.01168
29.51269	0.01149
29.56345	0.01116
29.58376	0.00891
29.58376	0.00919
29.60406	0.00605
29.62437	0.00730
29.63452	0.00636
29.65482	0.00860
29.69543	0.01068
29.70558	0.01456
29.70558	0.01521
29.74619	0.01565
29.80711	0.01417
29.87817	0.01370
29.89848	0.01051
29.94924	0.00978
29.97970	0.00710
30.00000	0.00911
30.06091	0.00951
30.09137	0.01055
30.10152	0.01263
30.13198	0.01304
30.16244	0.01208
30.17259	0.01127
30.23350	0.00855
30.26396	0.00845
30.28426	0.00513
30.36548	0.00603
30.40609	0.00639
30.42640	0.00927
30.49746	0.01152
30.53807	0.01235
30.55838	0.01373
30.59898	0.01225
30.62944	0.01226
30.63959	0.01010
30.69036	0.00919
30.73096	0.00888
30.75127	0.00902
30.79188	0.01022
30.79188	0.01255
30.79188	0.01459
30.82234	0.01632
30.84264	0.01687
30.85279	0.01881
30.85279	0.01799
30.86294	0.01757
30.88325	0.01581
31.02538	0.01516
31.13706	0.01303
31.18782	0.01310
31.34010	0.01175
31.41117	0.01062
31.44162	0.00803
31.51269	0.00627
31.55330	0.00490
31.56345	0.00534
31.63452	0.00394
31.67513	0.00356
31.69543	0.00424
31.75635	0.00430
31.79695	0.00587
31.81726	0.00756
31.93909	0.00864
32.03046	0.01008
32.08122	0.01075
32.20305	0.01081
32.28426	0.01116
32.31472	0.01075
32.38579	0.01063
32.40609	0.01029
32.40609	0.00892
32.43655	0.00846
32.46701	0.00855
32.51777	0.00750
32.54822	0.00736
32.63959	0.00730
32.68020	0.00650
32.70051	0.00534
32.75127	0.00570
32.80203	0.00787
32.83249	0.00855
32.87310	0.00934
32.89340	0.01208
32.91371	0.01379
32.95431	0.01510
33.00508	0.01645
33.03553	0.01571
33.10660	0.01485
33.14721	0.01523
33.17766	0.01235
33.29949	0.01324
33.36041	0.01516
33.38071	0.01349
33.39086	0.01488
33.42132	0.01587
33.43147	0.01623
33.48223	0.01647
33.49239	0.01730
33.49239	0.01728
33.51269	0.01784
33.56345	0.01763
33.61421	0.01701
33.64467	0.01718
33.72589	0.01756
33.78680	0.01810
33.81726	0.01876
33.94924	0.01706
34.02030	0.01617
34.06091	0.01432
34.17259	0.01352
34.26396	0.01148
34.30457	0.00997
34.43655	0.00793
34.52792	0.00669
34.56853	0.00604
34.70051	0.00730
34.80203	0.00946
34.87310	0.01032
35.10660	0.01044
35.25888	0.01332
35.32995	0.01368
35.50254	0.01414
35.62437	0.01487
35.69543	0.01512
35.80711	0.01441
35.85787	0.01260
35.90863	0.01276
36.09137	0.01141
36.23350	0.00887
36.31472	0.00816
36.54822	0.00696
36.73096	0.00886
36.86294	0.00737
37.23858	0.00856
37.47208	0.01101
37.60406	0.01173
37.88832	0.01279
38.07107	0.01082
38.15228	0.01162
38.41624	0.01013
38.57868	0.01038
38.69036	0.01126
38.93401	0.00998
39.11675	0.01063
39.23858	0.01169
39.57360	0.01190
39.79695	0.01367
39.92893	0.01416
40.24365	0.01461
40.46701	0.01326
40.60914	0.01278
41.02538	0.01224
41.31980	0.01225
41.44162	0.01223
41.77665	0.01044
42.00000	0.01218
42.09137	0.01255
42.32487	0.01245
42.45685	0.01269
42.50761	0.01329
42.68020	0.01310
42.85279	0.01279
43.14721	0.01111
43.31980	0.01232
43.54315	0.01046
43.71574	0.01218
43.97970	0.01257
44.17259	0.01463
44.42640	0.01564
44.61929	0.01681
44.96447	0.01637
45.21827	0.01602
45.58376	0.01356
45.82741	0.01282
46.23350	0.00987
46.51777	0.00968
46.95431	0.00917
47.21827	0.01138
47.63452	0.01395
47.94924	0.01555
48.47716	0.01836
48.85279	0.01864
49.43147	0.01952
49.82741	0.01869
50.40609	0.01733
50.80203	0.01589
51.42132	0.01292
51.85787	0.01223
52.51777	0.01216
52.94416	0.01218
53.66497	0.01205
54.12183	0.01167
54.83249	0.01146
55.30964	0.01084
56.02030	0.01141
56.48731	0.01158
57.26904	0.01178
57.84772	0.01052
58.68020	0.01009
59.20812	0.01246
60.15228	0.01483
60.79188	0.01886
61.89848	0.02109
62.46701	0.02182
63.46193	0.02193
64.05076	0.02076
64.93401	0.02138
65.49239	0.02136
66.31472	0.01947
66.77157	0.01788
67.55330	0.01799
68.01015	0.01759
68.25381	0.01887
68.95431	0.02080
69.43147	0.02044
69.71574	0.01978
70.41624	0.02074
70.98477	0.02170
71.22843	0.02407
72.03046	0.02579
72.51777	0.02805
72.76142	0.02906
73.51269	0.02917
74.04061	0.02785
74.32487	0.02834
75.13706	0.02483
75.66497	0.01980
75.97970	0.01530
76.77157	0.01777
77.31980	0.02576
77.61421	0.03687
78.38579	0.05167
78.91371	0.06743
79.76650	0.07756
80.32487	0.08541
81.13706	0.08798
81.63452	0.08358
81.92893	0.07208
82.64975	0.05724
83.07614	0.04184
83.34010	0.03281
83.95939	0.02698
84.41624	0.02205
84.61929	0.01964
85.30964	0.02089
85.78680	0.02103
86.05076	0.02172
86.83249	0.02243
87.30964	0.02270
88.09137	0.02216
88.68020	0.02042
89.52284	0.01708
90.05076	0.01178